Folder: EC_Analysis/CSV_data

File: protonly_1m_1000ma_anode.csv
index	number	frequency [Hz]	impedance Re [Ohm]	impedance Im [Ohm]	significance	time [s]	Re [Ohm*cm²]	-Im [Ohm*cm²]
0,	2	1378.7	0.038702	-0.012691	0.998	2.2	0.96755	0.317275
1,	3	1834.4	0.036197	-0.013506	0.997	2.7	0.904925	0.33765
2,	4	2440.8	0.03335	-0.014203	0.997	3.4	0.83375	0.355075
3,	5	3247.7	0.030147	-0.014693	0.996	3.9	0.753675	0.367325
4,	6	4321.3	0.026616	-0.014736	0.995	4.5	0.6654	0.3684
5,	7	5749.7	0.02289	-0.014048	0.993	5.1	0.57225	0.3512
6,	8	7650.3	0.019552	-0.012292	0.995	5.7	0.4888	0.3073
7,	9	10179.0	0.017658	-0.010055	0.993	6.2	0.44145	0.251375
8,	10	13544.0	0.016627	-0.0088807	0.993	6.7	0.415675	0.2220175
9,	11	18021.0	0.015084	-0.0082199	0.992	7.3	0.3771	0.2054975
10,	12	23979.0	0.013322	-0.0072604	0.994	7.8	0.33305	0.18151
11,	13	31905.0	0.011704	-0.0059425	0.994	8.4	0.2926	0.1485625
12,	14	42452.0	0.010411	-0.0043985	0.997	9.0	0.260275	0.109962
13,	15	56484.0	0.0094339	-0.0026236	0.998	9.5	0.235848	0.06559
14,	16	75156.0	0.0087735	-0.00069829	0.991	10.0	0.2193375	0.01745725
15,	17	100000.0	0.0081036	0.0021394	0.987	10.8	0.20259	-0.053485
16,	18	75156.0	0.0086565	-0.0001895	0.994	11.5	0.216412	0.0047375
17,	19	56484.0	0.0094476	-0.0026291	0.997	12.3	0.23619	0.0657275
18,	20	42452.0	0.010416	-0.0043949	0.997	13.1	0.2604	0.109873
19,	21	31905.0	0.011726	-0.0059684	0.995	13.6	0.29315	0.14921
20,	22	23979.0	0.013328	-0.0072569	0.994	14.2	0.3332	0.181423
21,	23	18021.0	0.015092	-0.0082315	0.993	14.7	0.3773	0.205787
22,	24	13544.0	0.016623	-0.0088756	0.993	15.2	0.415575	0.22189
23,	25	10179.0	0.017675	-0.010059	0.995	15.7	0.441875	0.251475
24,	26	7650.3	0.019577	-0.012301	0.995	16.3	0.489425	0.307525
25,	27	5749.7	0.022904	-0.014039	0.995	16.8	0.5726	0.350975
26,	28	4321.3	0.026664	-0.014745	0.995	17.3	0.6666	0.368625
27,	29	3247.7	0.030158	-0.014672	0.996	17.9	0.75395	0.3668
28,	30	2440.8	0.033413	-0.014209	0.998	18.4	0.835325	0.355225
29,	31	1834.4	0.036204	-0.013476	0.997	18.9	0.9051	0.3369
30,	32	1378.7	0.038755	-0.012687	0.997	19.4	0.968875	0.317175
31,	33	1036.2	0.040975	-0.011897	0.998	20.0	1.024375	0.297425
32,	34	778.75	0.042938	-0.011185	0.999	20.5	1.07345	0.279625
33,	35	585.28	0.04469	-0.010558	1.0	21.1	1.11725	0.26395
34,	36	439.87	0.046339	-0.010057	0.999	21.6	1.158475	0.251425
35,	37	330.59	0.047935	-0.0097301	1.0	22.2	1.19838	0.2432525
36,	38	248.46	0.049393	-0.0095305	1.0	22.8	1.234825	0.238263
37,	39	186.73	0.050899	-0.0094972	1.0	23.3	1.272475	0.23743
38,	40	140.34	0.052211	-0.0095859	1.0	23.9	1.305275	0.239647
39,	41	105.48	0.053664	-0.0098992	1.0	24.4	1.3416	0.24748
40,	42	79.271	0.054944	-0.010381	1.0	25.1	1.3736	0.259525
41,	43	59.52	0.056368	-0.010916	1.0	26.5	1.4092	0.2729
42,	44	44.261	0.057851	-0.012078	1.0	28.3	1.446275	0.30195
43,	45	32.576	0.059596	-0.013779	1.0	29.8	1.4899	0.344475
44,	46	23.713	0.061649	-0.016073	1.0	31.6	1.541225	0.401825
45,	47	17.058	0.064449	-0.019232	1.0	33.5	1.61123	0.4808
46,	48	12.117	0.068069	-0.023218	0.999	36.2	1.70173	0.58045
47,	49	8.4915	0.073444	-0.028188	0.999	39.4	1.8361	0.7047
48,	50	5.8653	0.081385	-0.033833	0.998	42.7	2.034625	0.845825
49,	51	3.9894	0.092747	-0.039221	0.997	47.1	2.318675	0.980525
50,	52	2.6693	0.10853	-0.041995	0.996	52.7	2.71325	1.049875
51,	53	1.7553	0.1276	-0.038362	0.995	62.0	3.19	0.95905
52,	54	1.1334	0.14401	-0.025329	0.993	73.7	3.60025	0.633225
53,	55	0.7181	0.14816	-0.0065048	0.991	90.5	3.704	0.16262
54,	56	0.44623	0.14481	0.0064074	0.989	115.1	3.62025	-0.160185
55,	57	0.27192	0.13789	0.012068	0.99	150.1	3.44725	-0.3017

File: protonly_5m_1000ma_anode.csv
index	number	frequency [Hz]	impedance Re [Ohm]	impedance Im [Ohm]	significance	time [s]	Re [Ohm*cm²]	-Im [Ohm*cm²]
0,	2	1378.7	0.040323	-0.014494	0.998	2.1	1.008075	0.36235
1,	3	1834.4	0.037372	-0.015283	0.996	2.6	0.9343	0.382075
2,	4	2440.8	0.034053	-0.015881	0.998	3.3	0.851325	0.397025
3,	5	3247.7	0.03042	-0.016173	0.996	3.8	0.7605	0.404325
4,	6	4321.3	0.02653	-0.015917	0.994	4.4	0.66325	0.397925
5,	7	5749.7	0.022586	-0.014902	0.993	5.0	0.56465	0.37255
6,	8	7650.3	0.019121	-0.012808	0.993	5.6	0.478025	0.3202
7,	9	10179.0	0.017173	-0.010309	0.994	6.1	0.429325	0.257725
8,	10	13544.0	0.016068	-0.0088261	0.992	6.6	0.4017	0.220653
9,	11	18021.0	0.014585	-0.0078715	0.992	7.1	0.364625	0.1967875
10,	12	23979.0	0.012923	-0.0066031	0.994	7.7	0.323075	0.165078
11,	13	31905.0	0.011462	-0.0050318	0.996	8.2	0.28655	0.125795
12,	14	42452.0	0.010311	-0.003203	0.998	8.9	0.257775	0.080075
13,	15	56484.0	0.0094704	-0.0011417	0.995	9.4	0.23676	0.0285425
14,	16	75156.0	0.0089491	0.0011424	0.988	9.9	0.2237275	-0.02856
15,	17	100000.0	0.0082282	0.0044266	0.982	10.7	0.205705	-0.110665
16,	18	75156.0	0.0086664	0.001685	0.987	11.4	0.21666	-0.042125
17,	19	56484.0	0.0094608	-0.0011651	0.995	12.2	0.23652	0.0291275
18,	20	42452.0	0.010303	-0.0032026	0.999	13.0	0.257575	0.080065
19,	21	31905.0	0.011447	-0.005024	0.996	13.5	0.286175	0.1256
20,	22	23979.0	0.012923	-0.006626	0.995	14.0	0.323075	0.16565
21,	23	18021.0	0.014588	-0.0078827	0.992	14.6	0.3647	0.197067
22,	24	13544.0	0.016084	-0.0088505	0.992	15.1	0.4021	0.221262
23,	25	10179.0	0.017195	-0.01034	0.995	15.6	0.429875	0.2585
24,	26	7650.3	0.019132	-0.012826	0.995	16.1	0.4783	0.32065
25,	27	5749.7	0.022609	-0.014932	0.995	16.7	0.565225	0.3733
26,	28	4321.3	0.02655	-0.015943	0.994	17.2	0.66375	0.398575
27,	29	3247.7	0.030449	-0.016204	0.996	17.7	0.761225	0.4051
28,	30	2440.8	0.034069	-0.015896	0.998	18.3	0.851725	0.3974
29,	31	1834.4	0.037376	-0.015295	0.997	18.8	0.9344	0.382375
30,	32	1378.7	0.040375	-0.014527	0.999	19.3	1.00938	0.363175
31,	33	1036.2	0.042992	-0.013686	0.998	19.8	1.0748	0.34215
32,	34	778.75	0.045383	-0.0129	0.999	20.4	1.134575	0.3225
33,	35	585.28	0.047466	-0.012168	1.0	20.9	1.18665	0.3042
34,	36	439.87	0.049434	-0.01155	0.999	21.4	1.23585	0.28875
35,	37	330.59	0.051201	-0.011097	1.0	22.1	1.280025	0.277425
36,	38	248.46	0.052948	-0.01081	0.999	22.6	1.3237	0.27025
37,	39	186.73	0.05451	-0.010671	1.0	23.2	1.36275	0.266775
38,	40	140.34	0.056148	-0.01075	1.0	23.7	1.4037	0.26875
39,	41	105.48	0.057599	-0.01102	1.0	24.3	1.439975	0.2755
40,	42	79.271	0.059184	-0.011579	1.0	24.9	1.4796	0.289475
41,	43	59.52	0.060836	-0.012137	1.0	26.4	1.5209	0.303425
42,	44	44.261	0.062462	-0.013375	1.0	28.2	1.56155	0.334375
43,	45	32.576	0.06449	-0.015124	1.0	29.8	1.61225	0.3781
44,	46	23.713	0.0667	-0.017479	1.0	31.9	1.6675	0.436975
45,	47	17.058	0.069871	-0.020726	0.999	34.2	1.746775	0.51815
46,	48	12.117	0.074274	-0.024805	0.999	36.4	1.85685	0.620125
47,	49	8.4915	0.080397	-0.029641	0.998	39.1	2.009925	0.741025
48,	50	5.8653	0.089188	-0.034559	0.998	42.5	2.2297	0.863975
49,	51	3.9894	0.10125	-0.038576	0.997	46.8	2.53125	0.9644
50,	52	2.6693	0.11696	-0.039274	0.996	52.6	2.924	0.98185
51,	53	1.7553	0.13375	-0.033676	0.994	61.8	3.34375	0.8419
52,	54	1.1334	0.14743	-0.019322	0.993	73.5	3.68575	0.48305
53,	55	0.7181	0.15056	-0.002115	0.991	90.2	3.764	0.052875
54,	56	0.44623	0.14473	0.011131	0.992	114.9	3.61825	-0.278275
55,	57	0.27192	0.13539	0.016491	0.99	149.9	3.38475	-0.412275
56,	58	0.16257	0.1293	0.015848	0.991	203.1	3.2325	-0.3962
57,	59	0.095466	0.12562	0.014404	0.992	282.6	3.1405	-0.3601